File: samples/xrd/ch2103/Ch2103_H2_1h_650_r.TXT
Sample	CH2103_650_1h_H2
Comments
Filename	C:\Measurements\Makogon\2018\272\CH2103_650_1h_H2.raw
Goniometer	Ultima IV
Attachment	MPA-ML4 (with gamma) for T.F.& std
Monochromater	Fixed Monochro.(U4)
ScanningMode	2Theta/Theta
ScanningType	FT
X-Ray	30kV/30mA
DivSlit	1/2deg.
DivH.L.Slit	5.00mm
SctSlit	1/2deg.
RecSlit	0.45mm
Monochro RS	No Use
Start	20
Stop	60
Step	0.04
FT	5
20	24
20.04	28
20.08	20
20.12	22
20.16	22
20.2	29
20.24	34
20.28	40
20.32	26
20.36	24
20.4	27
20.44	19
20.48	27
20.52	21
20.56	14
20.6	23
20.64	21
20.68	33
20.72	19
20.76	22
20.8	20
20.84	22
20.88	21
20.92	24
20.96	31
21	35
21.04	32
21.08	25
21.12	25
21.16	24
21.2	21
21.24	25
21.28	23
21.32	25
21.36	21
21.4	24
21.44	24
21.48	17
21.52	17
21.56	30
21.6	23
21.64	18
21.68	28
21.72	29
21.76	29
21.8	29
21.84	26
21.88	18
21.92	23
21.96	27
22	29
22.04	25
22.08	24
22.12	25
22.16	24
22.2	18
22.24	14
22.28	19
22.32	17
22.36	19
22.4	24
22.44	24
22.48	20
22.52	24
22.56	24
22.6	20
22.64	18
22.68	24
22.72	28
22.76	19
22.8	23
22.84	24
22.88	13
22.92	23
22.96	21
23	21
23.04	13
23.08	20
23.12	21
23.16	13
23.2	11
23.24	22
23.28	20
23.32	25
23.36	19
23.4	22
23.44	24
23.48	15
23.52	15
23.56	30
23.6	29
23.64	12
23.68	18
23.72	14
23.76	14
23.8	22
23.84	21
23.88	26
23.92	18
23.96	28
24	23
24.04	19
24.08	16
24.12	19
24.16	15
24.2	18
24.24	18
24.28	28
24.32	12
24.36	22
24.4	20
24.44	20
24.48	22
24.52	17
24.56	22
24.6	17
24.64	18
24.68	16
24.72	18
24.76	18
24.8	20
24.84	16
24.88	22
24.92	22
24.96	17
25	20
25.04	22
25.08	18
25.12	18
25.16	16
25.2	17
25.24	14
25.28	15
25.32	17
25.36	17
25.4	15
25.44	18
25.48	16
25.52	17
25.56	11
25.6	16
25.64	11
25.68	15
25.72	23
25.76	16
25.8	17
25.84	16
25.88	12
25.92	16
25.96	18
26	16
26.04	20
26.08	16
26.12	17
26.16	20
26.2	16
26.24	13
26.28	19
26.32	16
26.36	17
26.4	15
26.44	16
26.48	19
26.52	16
26.56	12
26.6	17
26.64	13
26.68	13
26.72	19
26.76	8
26.8	13
26.84	13
26.88	19
26.92	16
26.96	17
27	12
27.04	14
27.08	11
27.12	18
27.16	25
27.2	17
27.24	9
27.28	11
27.32	24
27.36	14
27.4	22
27.44	16
27.48	12
27.52	21
27.56	19
27.6	12
27.64	18
27.68	12
27.72	25
27.76	14
27.8	17
27.84	12
27.88	27
27.92	19
27.96	9
28	15
28.04	17
28.08	19
28.12	17
28.16	16
28.2	18
28.24	22
28.28	10
28.32	20
28.36	26
28.4	13
28.44	16
28.48	17
28.52	18
28.56	15
28.6	18
28.64	17
28.68	16
28.72	10
28.76	12
28.8	16
28.84	13
28.88	21
28.92	16
28.96	12
29	11
29.04	18
29.08	10
29.12	12
29.16	9
29.2	17
29.24	11
29.28	14
29.32	13
29.36	15
29.4	9
29.44	16
29.48	10
29.52	15
29.56	12
29.6	14
29.64	19
29.68	20
29.72	11
29.76	12
29.8	17
29.84	18
29.88	15
29.92	14
29.96	13
30	14
30.04	10
30.08	9
30.12	14
30.16	16
30.2	14
30.24	15
30.28	13
30.32	14
30.36	14
30.4	15
30.44	20
30.48	15
30.52	16
30.56	17
30.6	15
30.64	8
30.68	14
30.72	9
30.76	11
30.8	9
30.84	19
30.88	18
30.92	9
30.96	11
31	10
31.04	15
31.08	17
31.12	9
31.16	19
31.2	19
31.24	15
31.28	14
31.32	15
31.36	12
31.4	16
31.44	17
31.48	14
31.52	14
31.56	20
31.6	15
31.64	8
31.68	16
31.72	15
31.76	13
31.8	13
31.84	19
31.88	14
31.92	21
31.96	22
32	23
32.04	27
32.08	26
32.12	41
32.16	49
32.2	58
32.24	33
32.28	57
32.32	57
32.36	50
32.4	71
32.44	71
32.48	91
32.52	97
32.56	116
32.6	141
32.64	152
32.68	147
32.72	171
32.76	172
32.8	208
32.84	196
32.88	228
32.92	243
32.96	256
33	276
33.04	280
33.08	299
33.12	301
33.16	324
33.2	312
33.24	347
33.28	324
33.32	330
33.36	388
33.4	359
33.44	396
33.48	387
33.52	369
33.56	402
33.6	398
33.64	379
33.68	371
33.72	359
33.76	353
33.8	362
33.84	359
33.88	369
33.92	336
33.96	351
34	343
34.04	329
34.08	354
34.12	343
34.16	352
34.2	324
34.24	295
34.28	331
34.32	309
34.36	304
34.4	285
34.44	300
34.48	274
34.52	271
34.56	294
34.6	302
34.64	287
34.68	255
34.72	255
34.76	275
34.8	247
34.84	256
34.88	239
34.92	240
34.96	211
35	224
35.04	223
35.08	245
35.12	193
35.16	203
35.2	217
35.24	201
35.28	231
35.32	205
35.36	189
35.4	186
35.44	189
35.48	177
35.52	189
35.56	156
35.6	160
35.64	152
35.68	134
35.72	154
35.76	155
35.8	120
35.84	113
35.88	123
35.92	113
35.96	86
36	88
36.04	93
36.08	83
36.12	74
36.16	70
36.2	57
36.24	70
36.28	48
36.32	41
36.36	52
36.4	51
36.44	33
36.48	36
36.52	35
36.56	26
36.6	24
36.64	23
36.68	16
36.72	22
36.76	17
36.8	23
36.84	19
36.88	10
36.92	14
36.96	19
37	20
37.04	15
37.08	15
37.12	12
37.16	9
37.2	9
37.24	15
37.28	11
37.32	15
37.36	14
37.4	12
37.44	15
37.48	18
37.52	13
37.56	12
37.6	16
37.64	9
37.68	15
37.72	20
37.76	14
37.8	17
37.84	14
37.88	9
37.92	12
37.96	13
38	16
38.04	13
38.08	11
38.12	15
38.16	11
38.2	9
38.24	17
38.28	15
38.32	16
38.36	17
38.4	17
38.44	16
38.48	21
38.52	15
38.56	13
38.6	21
38.64	18
38.68	9
38.72	12
38.76	13
38.8	20
38.84	19
38.88	21
38.92	14
38.96	16
39	21
39.04	13
39.08	13
39.12	16
39.16	16
39.2	15
39.24	19
39.28	18
39.32	21
39.36	20
39.4	26
39.44	25
39.48	21
39.52	27
39.56	30
39.6	32
39.64	27
39.68	30
39.72	40
39.76	43
39.8	37
39.84	36
39.88	54
39.92	59
39.96	73
40	64
40.04	90
40.08	84
40.12	98
40.16	92
40.2	116
40.24	147
40.28	154
40.32	218
40.36	293
40.4	348
40.44	432
40.48	610
40.52	935
40.56	1459
40.6	2242
40.64	3262
40.68	4383
40.72	5017
40.76	5393
40.8	5111
40.84	4402
40.88	3505
40.92	2517
40.96	1768
41	1235
41.04	857
41.08	573
41.12	413
41.16	315
41.2	269
41.24	219
41.28	181
41.32	120
41.36	102
41.4	122
41.44	69
41.48	70
41.52	62
41.56	61
41.6	54
41.64	45
41.68	52
41.72	38
41.76	33
41.8	33
41.84	30
41.88	29
41.92	28
41.96	18
42	21
42.04	19
42.08	24
42.12	20
42.16	33
42.2	17
42.24	13
42.28	26
42.32	16
42.36	14
42.4	16
42.44	16
42.48	18
42.52	16
42.56	12
42.6	19
42.64	9
42.68	19
42.72	10
42.76	17
42.8	21
42.84	16
42.88	18
42.92	21
42.96	12
43	16
43.04	13
43.08	14
43.12	19
43.16	12
43.2	10
43.24	7
43.28	10
43.32	7
43.36	14
43.4	13
43.44	15
43.48	13
43.52	16
43.56	7
43.6	11
43.64	12
43.68	13
43.72	14
43.76	10
43.8	9
43.84	18
43.88	14
43.92	21
43.96	14
44	12
44.04	7
44.08	8
44.12	7
44.16	12
44.2	16
44.24	5
44.28	15
44.32	15
44.36	12
44.4	9
44.44	12
44.48	16
44.52	9
44.56	17
44.6	8
44.64	8
44.68	16
44.72	12
44.76	13
44.8	14
44.84	9
44.88	12
44.92	12
44.96	13
45	11
45.04	19
45.08	15
45.12	20
45.16	15
45.2	16
45.24	11
45.28	12
45.32	12
45.36	9
45.4	9
45.44	9
45.48	9
45.52	13
45.56	14
45.6	10
45.64	11
45.68	22
45.72	18
45.76	18
45.8	19
45.84	13
45.88	15
45.92	19
45.96	10
46	11
46.04	20
46.08	6
46.12	27
46.16	15
46.2	19
46.24	18
46.28	20
46.32	23
46.36	35
46.4	21
46.44	34
46.48	24
46.52	30
46.56	27
46.6	43
46.64	33
46.68	35
46.72	60
46.76	40
46.8	54
46.84	67
46.88	53
46.92	75
46.96	88
47	122
47.04	154
47.08	210
47.12	314
47.16	519
47.2	717
47.24	870
47.28	1078
47.32	1192
47.36	1250
47.4	1145
47.44	1054
47.48	866
47.52	685
47.56	542
47.6	414
47.64	300
47.68	219
47.72	175
47.76	125
47.8	115
47.84	76
47.88	69
47.92	63
47.96	59
48	44
48.04	39
48.08	33
48.12	29
48.16	28
48.2	24
48.24	21
48.28	30
48.32	24
48.36	22
48.4	14
48.44	19
48.48	13
48.52	16
48.56	15
48.6	16
48.64	18
48.68	15
48.72	19
48.76	14
48.8	13
48.84	16
48.88	17
48.92	14
48.96	11
49	18
49.04	10
49.08	19
49.12	11
49.16	10
49.2	10
49.24	11
49.28	13
49.32	8
49.36	13
49.4	16
49.44	9
49.48	12
49.52	9
49.56	14
49.6	16
49.64	8
49.68	10
49.72	12
49.76	12
49.8	13
49.84	9
49.88	17
49.92	11
49.96	10
50	5
50.04	16
50.08	13
50.12	17
50.16	18
50.2	5
50.24	11
50.28	18
50.32	10
50.36	8
50.4	15
50.44	11
50.48	13
50.52	13
50.56	9
50.6	11
50.64	9
50.68	12
50.72	14
50.76	9
50.8	14
50.84	14
50.88	10
50.92	16
50.96	15
51	15
51.04	17
51.08	5
51.12	10
51.16	10
51.2	10
51.24	8
51.28	14
51.32	9
51.36	18
51.4	10
51.44	16
51.48	6
51.52	10
51.56	10
51.6	10
51.64	13
51.68	7
51.72	13
51.76	7
51.8	18
51.84	14
51.88	12
51.92	10
51.96	15
52	8
52.04	6
52.08	14
52.12	12
52.16	14
52.2	6
52.24	10
52.28	14
52.32	14
52.36	7
52.4	14
52.44	13
52.48	3
52.52	7
52.56	7
52.6	12
52.64	7
52.68	14
52.72	6
52.76	9
52.8	15
52.84	9
52.88	16
52.92	20
52.96	12
53	10
53.04	6
53.08	8
53.12	14
53.16	10
53.2	2
53.24	11
53.28	9
53.32	13
53.36	15
53.4	8
53.44	13
53.48	21
53.52	21
53.56	10
53.6	12
53.64	8
53.68	13
53.72	12
53.76	7
53.8	8
53.84	8
53.88	10
53.92	23
53.96	12
54	13
54.04	14
54.08	8
54.12	9
54.16	15
54.2	7
54.24	12
54.28	11
54.32	7
54.36	10
54.4	12
54.44	7
54.48	9
54.52	10
54.56	19
54.6	15
54.64	15
54.68	16
54.72	13
54.76	13
54.8	19
54.84	16
54.88	11
54.92	6
54.96	13
55	14
55.04	19
55.08	17
55.12	15
55.16	14
55.2	15
55.24	16
55.28	16
55.32	11
55.36	6
55.4	13
55.44	8
55.48	17
55.52	19
55.56	10
55.6	7
55.64	14
55.68	10
55.72	14
55.76	21
55.8	10
55.84	18
55.88	16
55.92	12
55.96	9
56	10
56.04	10
56.08	27
56.12	12
56.16	8
56.2	23
56.24	10
56.28	12
56.32	10
56.36	14
56.4	14
56.44	16
56.48	14
56.52	10
56.56	7
56.6	5
56.64	17
56.68	13
56.72	6
56.76	17
56.8	14
56.84	7
56.88	5
56.92	17
56.96	15
57	8
57.04	14
57.08	6
57.12	12
57.16	16
57.2	14
57.24	14
57.28	14
57.32	18
57.36	12
57.4	17
57.44	10
57.48	17
57.52	12
57.56	13
57.6	8
57.64	9
57.68	12
57.72	10
57.76	7
57.8	8
57.84	9
57.88	12
57.92	11
57.96	18
58	13
58.04	9
58.08	9
58.12	10
58.16	13
58.2	13
58.24	12
58.28	6
58.32	8
58.36	7
58.4	10
58.44	15
58.48	17
58.52	17
58.56	16
58.6	5
58.64	12
58.68	13
58.72	8
58.76	10
58.8	9
58.84	11
58.88	14
58.92	12
58.96	15
59	19
59.04	5
59.08	11
59.12	16
59.16	13
59.2	15
59.24	13
59.28	12
59.32	15
59.36	16
59.4	9
59.44	18
59.48	10
59.52	12
59.56	12
59.6	12
59.64	12
59.68	13
59.72	12
59.76	15
59.8	16
59.84	6
59.88	18
59.92	18
59.96	19
60	16